STUDYID,USUBJID,AESEQ,AETERM,AEDECOD,AEBODSYS,AESTDTC,AEENDTC,AESER
ABC,ABC-001,1,HEADACHE,Headache,Nervous system disorders,2023-01-05,2023-01-06,N
ABC,ABC-002,1,NAUSEA,Nausea,Gastrointestinal disorders,2023-01-10,2023-01-11,N
