STUDYID,USUBJID,SUBJID,RFSTDTC,RFENDTC,SITEID,AGE,SEX,RACE,ARM,ACTARM,DMDTC
ABC,ABC-001,001,2023-01-01,2023-01-31,SITE01,45,M,WHITE,ARM A,ARM A,2023-01-01
ABC,ABC-002,002,2023-01-02,2023-02-01,SITE01,32,F,ASIAN,ARM B,ARM B,2023-01-02
