STUDYID,USUBJID,EXSEQ,EXTRT,EXDOSE,EXDOSU,EXSTDTC,EXENDTC
ABC,ABC-001,1,DRUG A,10,mg,2023-01-01,2023-01-15
ABC,ABC-001,2,DRUG A,10,mg,2023-01-16,2023-01-31
ABC,ABC-002,1,DRUG B,20,mg,2023-01-02,2023-01-15
