STUDYID,USUBJID,LBSEQ,LBTESTCD,LBTEST,LBORRES,LBORRESU,LBSTRESC,LBSTRESN,LBSTRESU,LBDTC
ABC,ABC-001,1,GLUC,Glucose,100,mg/dL,100,5.55,mmol/L,2023-01-01
ABC,ABC-002,1,GLUC,Glucose,95,mg/dL,95,5.27,mmol/L,2023-01-02
